study_word	test_words	reference	old_new	trials.thisRepN	trials.thisTrialN	trials.thisN	trials.thisIndex	trials_2.thisRepN	trials_2.thisTrialN	trials_2.thisN	trials_2.thisIndex	thisRow.t	notes	trial.started	text.started	slider.started	trial.stopped	slider.response	slider.rt	test_2.started	text_2.started	textbox.started	submit_text.started	mouse.started	test_2.stopped	textbox.text	mouse.x	mouse.y	mouse.leftButton	mouse.midButton	mouse.rightButton	mouse.time	mouse.clicked_name	participant	session	date	expName	psychopyVersion	frameRate	expStart
cruise				0	0	0	11					0.0989745		0.0362072	0.0989745	0.0989745	2.5561664	2.026666667	2.4765527															39999	1	2024-11-07_11h29.28.154	word priming	2024.1.5	None	2024-11-07 11h29.37.652977 +0530
phone				0	1	1	2					2.5987373		2.5589036	2.5987373	2.5987373	4.0339348	1.96	1.4305852															39999	1	2024-11-07_11h29.28.154	word priming	2024.1.5	None	2024-11-07 11h29.37.652977 +0530
keys				0	2	2	13					4.0651019		4.0344254	4.0651019	4.0651019	5.5215757	1	1.4427666															39999	1	2024-11-07_11h29.28.154	word priming	2024.1.5	None	2024-11-07 11h29.37.652977 +0530
case				0	3	3	10					5.5486092		5.5219083	5.5486092	5.5486092	6.938813	2	1.3913015															39999	1	2024-11-07_11h29.28.154	word priming	2024.1.5	None	2024-11-07 11h29.37.652977 +0530
t-shirt				0	4	4	7					6.9658963		6.9391031	6.9658963	6.9658963	8.4890865	1	1.52379															39999	1	2024-11-07_11h29.28.154	word priming	2024.1.5	None	2024-11-07 11h29.37.652977 +0530
poster				0	5	5	14					8.5155853		8.4893717	8.5155853	8.5155853	10.4736445	1	1.9601112															39999	1	2024-11-07_11h29.28.154	word priming	2024.1.5	None	2024-11-07 11h29.37.652977 +0530
marble				0	6	6	3					10.499123		10.4739585	10.499123	10.499123	11.5893224	1	1.0913305															39999	1	2024-11-07_11h29.28.154	word priming	2024.1.5	None	2024-11-07 11h29.37.652977 +0530
board				0	7	7	4					11.6165795		11.5896026	11.6165795	11.6165795	13.3731714	1	1.740238															39999	1	2024-11-07_11h29.28.154	word priming	2024.1.5	None	2024-11-07 11h29.37.652977 +0530
police				0	8	8	12					13.3996619		13.3735014	13.3996619	13.3996619	14.5901604	1	1.1923984															39999	1	2024-11-07_11h29.28.154	word priming	2024.1.5	None	2024-11-07 11h29.37.652977 +0530
mouse				0	9	9	8					14.6163596		14.5904831	14.6163596	14.6163596	15.6406247	1	1.0098442															39999	1	2024-11-07_11h29.28.154	word priming	2024.1.5	None	2024-11-07 11h29.37.652977 +0530
laptop				0	10	10	5					15.6666396		15.6409818	15.6666396	15.6666396	17.6732815	2	2.0074223															39999	1	2024-11-07_11h29.28.154	word priming	2024.1.5	None	2024-11-07 11h29.37.652977 +0530
book				0	11	11	0					17.7002536		17.6735658	17.7002536	17.7002536	19.2239833	2.993333333	1.5276696															39999	1	2024-11-07_11h29.28.154	word priming	2024.1.5	None	2024-11-07 11h29.37.652977 +0530
chart				0	12	12	6					19.2504648		19.2242725	19.2504648	19.2504648	20.0241842	2.993333333	0.7765782															39999	1	2024-11-07_11h29.28.154	word priming	2024.1.5	None	2024-11-07 11h29.37.652977 +0530
cushion				0	13	13	1					20.0504575		20.0245284	20.0504575	20.0504575	21.6239256	1.986666667	1.5761084															39999	1	2024-11-07_11h29.28.154	word priming	2024.1.5	None	2024-11-07 11h29.37.652977 +0530
pastry				0	14	14	9					21.6504511		21.6242169	21.6504511	21.6504511	23.7910062	1	2.1077499															39999	1	2024-11-07_11h29.28.154	word priming	2024.1.5	None	2024-11-07 11h29.37.652977 +0530
	_oo_	book	old					0	0	0	13	23.8427912								23.8045049	23.8427912	23.8427912	23.8427912	0.0173575	27.8741853	books	[0.04]	[-0.285]	[1]	[0]	[0]	[4.065118599915877]	['submit_text']	39999	1	2024-11-07_11h29.28.154	word priming	2024.1.5	None	2024-11-07 11h29.37.652977 +0530
	c_s_io_	cushion	old					0	1	1	14	27.9020808								27.8752231	27.9020808	27.9020808	27.9020808	0.0026902	31.1070001	cushion	[0.06333333333333334]	[-0.30333333333333334]	[1]	[0]	[0]	[3.2287532999180257]	['submit_text']	39999	1	2024-11-07_11h29.28.154	word priming	2024.1.5	None	2024-11-07 11h29.37.652977 +0530
	_ha_t	chart	old					0	2	2	1	31.1359128								31.1076868	31.1359128	31.1359128	31.1359128	0.0022799	40.0246573	chart	[0.04666666666666667]	[-0.30333333333333334]	[1]	[0]	[0]	[8.914356000022963]	['submit_text']	39999	1	2024-11-07_11h29.28.154	word priming	2024.1.5	None	2024-11-07 11h29.37.652977 +0530
	p_li_e	police	old					0	3	3	7	40.0537205								40.0252782	40.0537205	40.0537205	40.0537205	0.0028645	43.0590128	police	[0.07833333333333334]	[-0.30333333333333334]	[1]	[0]	[0]	[3.030548800015822]	['submit_text']	39999	1	2024-11-07_11h29.28.154	word priming	2024.1.5	None	2024-11-07 11h29.37.652977 +0530
	ta_l_	table	new					0	4	4	15	43.0873142								43.0596469	43.0873142	43.0873142	43.0873142	0.0024882	46.3253393	table	[0.12333333333333334]	[-0.30333333333333334]	[1]	[0]	[0]	[3.262885600095615]	['submit_text']	39999	1	2024-11-07_11h29.28.154	word priming	2024.1.5	None	2024-11-07 11h29.37.652977 +0530
	_o_rd	board	old					0	5	5	10	46.35455								46.3259704	46.35455	46.35455	46.35455	0.0022913	56.3419837	boa	[]	[]	[]	[]	[]	[]	[]	39999	1	2024-11-07_11h29.28.154	word priming	2024.1.5	None	2024-11-07 11h29.37.652977 +0530
	_a_bl_	marble	old					0	6	6	11	56.3558779								56.3425388	56.3558779	56.3558779	56.3558779	0.0188711	60.6431563	table	[0.06666666666666667]	[-0.30666666666666664]	[1]	[0]	[0]	[4.297952800057828]	['submit_text']	39999	1	2024-11-07_11h29.28.154	word priming	2024.1.5	None	2024-11-07 11h29.37.652977 +0530
	p_st_r	poster	old					0	7	7	9	60.6721504								60.6438164	60.6721504	60.6721504	60.6721504	0.0025665	63.6100753	pastry	[0.095]	[-0.30666666666666664]	[1]	[0]	[0]	[2.9633712000213563]	['submit_text']	39999	1	2024-11-07_11h29.28.154	word priming	2024.1.5	None	2024-11-07 11h29.37.652977 +0530
	p_nc_l	pencil	new					0	8	8	16	63.6395268								63.610745	63.6395268	63.6395268	63.6395268	0.0054387	67.0287953	pencil	[0.10166666666666667]	[-0.29833333333333334]	[1]	[0]	[0]	[3.412245800020173]	['submit_text']	39999	1	2024-11-07_11h29.28.154	word priming	2024.1.5	None	2024-11-07 11h29.37.652977 +0530
	c_s_	case	old					0	9	9	5	67.0565628								67.0294432	67.0565628	67.0565628	67.0565628	0.0024746	71.2783212	case	[0.12666666666666668]	[-0.295]	[1]	[0]	[0]	[4.245946899987757]	['submit_text']	39999	1	2024-11-07_11h29.28.154	word priming	2024.1.5	None	2024-11-07 11h29.37.652977 +0530
	v_s_	vase	new					0	10	10	17	71.3059366								71.2789673	71.3059366	71.3059366	71.3059366	0.0049754	74.3293331	vase	[0.10333333333333333]	[-0.2966666666666667]	[1]	[0]	[0]	[3.044917599996552]	['submit_text']	39999	1	2024-11-07_11h29.28.154	word priming	2024.1.5	None	2024-11-07 11h29.37.652977 +0530
	_ou_se	mouse	old					0	11	11	3	74.3572073								74.3304106	74.3572073	74.3572073	74.3572073	0.0040804	77.5472287	mouse	[0.075]	[-0.3016666666666667]	[1]	[0]	[0]	[3.2123666999395937]	['submit_text']	39999	1	2024-11-07_11h29.28.154	word priming	2024.1.5	None	2024-11-07 11h29.37.652977 +0530
	c_m_ra	camera	new					0	12	12	19	77.5743122								77.5478914	77.5743122	77.5743122	77.5743122	0.0028855	81.3126725	camera	[0.06]	[-0.3016666666666667]	[1]	[0]	[0]	[3.761503899935633]	['submit_text']	39999	1	2024-11-07_11h29.28.154	word priming	2024.1.5	None	2024-11-07 11h29.37.652977 +0530
	t_hi_t	tshirt	old					0	13	13	2	81.3415988								81.3133038	81.3415988	81.3415988	81.3415988	0.0023887	84.1970489	tshirt	[0.07833333333333334]	[-0.3016666666666667]	[1]	[0]	[0]	[2.880891300039366]	['submit_text']	39999	1	2024-11-07_11h29.28.154	word priming	2024.1.5	None	2024-11-07 11h29.37.652977 +0530
	k_y_	keys	old					0	14	14	8	84.2246703								84.1976924	84.2246703	84.2246703	84.2246703	0.0022618	86.6131832	keys	[0.09666666666666666]	[-0.2966666666666667]	[1]	[0]	[0]	[2.412862799828872]	['submit_text']	39999	1	2024-11-07_11h29.28.154	word priming	2024.1.5	None	2024-11-07 11h29.37.652977 +0530
	bo_t_e	bottle	new					0	15	15	18	86.6420195								86.6138552	86.6420195	86.6420195	86.6420195	0.002528	90.3142999	bottle	[0.13166666666666665]	[-0.305]	[1]	[0]	[0]	[3.6975141998846084]	['submit_text']	39999	1	2024-11-07_11h29.28.154	word priming	2024.1.5	None	2024-11-07 11h29.37.652977 +0530
	p_as_tr_	pastry	old					0	16	16	4	90.3422756								90.3149246	90.3422756	90.3422756	90.3422756	0.0026012	94.614153	pastry	[0.10333333333333333]	[-0.3016666666666667]	[1]	[0]	[0]	[4.296250800136477]	['submit_text']	39999	1	2024-11-07_11h29.28.154	word priming	2024.1.5	None	2024-11-07 11h29.37.652977 +0530
	l_pt_p	laptop	old 					0	17	17	0	94.6422024								94.6147737	94.6422024	94.6422024	94.6422024	0.0023275	97.78773	laptop	[0.095]	[-0.3]	[1]	[0]	[0]	[3.169847099808976]	['submit_text']	39999	1	2024-11-07_11h29.28.154	word priming	2024.1.5	None	2024-11-07 11h29.37.652977 +0530
	_ru_is_	cruise	old					0	18	18	6	97.8096006								97.7891446	97.8096006	97.8096006	97.8096006	0.0059627	107.7982686		[]	[]	[]	[]	[]	[]	[]	39999	1	2024-11-07_11h29.28.154	word priming	2024.1.5	None	2024-11-07 11h29.37.652977 +0530
	_ho_e	phone	old					0	19	19	12	107.8275971								107.7988151	107.8275971	107.8275971	107.8275971	0.0136274	111.2821375	shoes	[0.12]	[-0.30333333333333334]	[1]	[0]	[0]	[3.4790541999973357]	['submit_text']	39999	1	2024-11-07_11h29.28.154	word priming	2024.1.5	None	2024-11-07 11h29.37.652977 +0530
																											prop hit from study list	10	0.5											
																											prop for non primed words	5	0.25											
																																								
																											priming score	0.25												
