reward_today	future_reward	delay	trials.thisRepN	trials.thisTrialN	trials.thisN	trials.thisIndex	thisRow.t	notes	trial.started	fixation.started	text.started	key_resp.started	fixation.stopped	trial.stopped	key_resp.keys	key_resp.rt	key_resp.duration	participant	session	date	expName	psychopyVersion	frameRate	expStart				k		
67	75	119	0	1	1	5	16.5472334		16.5236821	16.5472334	17.5325062	17.5325062	17.5494456	18.2405292	l	0.7016422	None	185266	1	2024-11-21_14h12.29.385	delay discounting	2024.1.5	None	2024-11-21 14h12.43.600875 +0530				0.001003386		
11	30	7	0	2	2	0	18.2650438		18.2415536	18.2650438	19.249302	19.249302	19.2661641	20.3876706	l	1.1235829	None	185266	1	2024-11-21_14h12.29.385	delay discounting	2024.1.5	None	2024-11-21 14h12.43.600875 +0530				0.246753247		
78	80	162	0	3	3	6	20.4144037		20.3884255	20.4144037	21.3995837	21.3995837	21.416091	25.8883903	l	4.4863066	None	185266	1	2024-11-21_14h12.29.385	delay discounting	2024.1.5	None	2024-11-21 14h12.43.600875 +0530				0.000158278		
40	55	62	1	1	8	3	32.4830774		32.459364	32.4830774	33.4668378	33.4668378	33.4841374	33.639576	l	0.1645589	None	185266	1	2024-11-21_14h12.29.385	delay discounting	2024.1.5	None	2024-11-21 14h12.43.600875 +0530				0.006048387		
49	60	89	1	6	13	4	39.1502726		39.1249518	39.1502726	40.1504688	40.1504688	40.1680946	40.5572477	l	0.3989802	None	185266	1	2024-11-21_14h12.29.385	delay discounting	2024.1.5	None	2024-11-21 14h12.43.600875 +0530				0.002522357		
11	30	7	2	0	14	0	40.5838692		40.5581498	40.5838692	41.5685252	41.5685252	41.5853497	41.8735073	l	0.292788	None	185266	1	2024-11-21_14h12.29.385	delay discounting	2024.1.5	None	2024-11-21 14h12.43.600875 +0530				0.246753247		
49	60	89	2	3	17	4	45.0511279		45.0254622	45.0511279	46.0356804	46.0356804	46.0518362	46.3767101	l	0.3352894	None	185266	1	2024-11-21_14h12.29.385	delay discounting	2024.1.5	None	2024-11-21 14h12.43.600875 +0530				0.002522357		
67	75	119	3	0	21	5	55.1020805		55.0780794	55.1020805	56.0865395	56.0865395	56.1030218	56.575149	l	0.4857908	None	185266	1	2024-11-21_14h12.29.385	delay discounting	2024.1.5	None	2024-11-21 14h12.43.600875 +0530				0.001003386		
49	60	89	3	4	25	4	65.6370256		65.6266827	65.6370256	66.637445	66.637445	66.637445	69.5258293	l	2.8826681	None	185266	1	2024-11-21_14h12.29.385	delay discounting	2024.1.5	None	2024-11-21 14h12.43.600875 +0530				0.002522357		
11	30	7	3	5	26	0	69.5377607		69.5265244	69.5377607	70.5379084	70.5379084	70.5379084	76.1293195	l	5.5613783	None	185266	1	2024-11-21_14h12.29.385	delay discounting	2024.1.5	None	2024-11-21 14h12.43.600875 +0530				0.246753247		
40	55	62	4	5	33	3	96.2739994		96.2625793	96.2739994	97.2737718	97.2737718	97.2737718	101.1963037	l	3.9151217	None	185266	1	2024-11-21_14h12.29.385	delay discounting	2024.1.5	None	2024-11-21 14h12.43.600875 +0530				0.006048387		
49	60	89	5	2	37	4	124.7922818		124.7695474	124.7922818	125.7768776	125.7768776	125.7929126	127.584309	l	1.7951963	None	185266	1	2024-11-21_14h12.29.385	delay discounting	2024.1.5	None	2024-11-21 14h12.43.600875 +0530				0.002522357		
11	30	7	5	3	38	0	127.6093068		127.5855655	127.6093068	128.6103617	128.6103617	128.6103617	135.1687234	l	6.5469608	None	185266	1	2024-11-21_14h12.29.385	delay discounting	2024.1.5	None	2024-11-21 14h12.43.600875 +0530				0.246753247		
37	50	21	5	4	39	2	135.1936125		135.1697846	135.1936125	136.1781058	136.1781058	136.2104062	139.5188511	l	3.3284737	None	185266	1	2024-11-21_14h12.29.385	delay discounting	2024.1.5	None	2024-11-21 14h12.43.600875 +0530				0.016731017		
40	55	62	5	5	40	3	139.5440868		139.5198795	139.5440868	140.5281199	140.5281199	140.5450606	143.4871279	l	2.9446396	None	185266	1	2024-11-21_14h12.29.385	delay discounting	2024.1.5	None	2024-11-21 14h12.43.600875 +0530				0.006048387		
67	75	119	5	6	41	5	143.5110093		143.488324	143.5110093	144.4953704	144.4953704	144.5119867	146.700504	l	2.1928785	None	185266	1	2024-11-21_14h12.29.385	delay discounting	2024.1.5	None	2024-11-21 14h12.43.600875 +0530				0.001003386		
40	55	62	6	1	43	3	148.6288526		148.618574	148.6288526	149.6290172	149.6290172	149.6290172	150.6035066	l	0.9725711	None	185266	1	2024-11-21_14h12.29.385	delay discounting	2024.1.5	None	2024-11-21 14h12.43.600875 +0530				0.006048387		
11	30	7	6	3	45	0	154.2287649		154.2037948	154.2287649	155.2131097	155.2131097	155.2300665	156.0703694	l	0.847411	None	185266	1	2024-11-21_14h12.29.385	delay discounting	2024.1.5	None	2024-11-21 14h12.43.600875 +0530				0.246753247		
37	50	21	6	5	47	2	158.3460587		158.3227542	158.3460587	159.3301909	159.3301909	159.3470237	160.3913612	l	1.0553347	None	185266	1	2024-11-21_14h12.29.385	delay discounting	2024.1.5	None	2024-11-21 14h12.43.600875 +0530				0.016731017		
15	35	13	6	6	48	1	160.4129833		160.3933513	160.4129833	161.3969216	161.3969216	161.4137252	165.8195001	l	4.4177026	None	185266	1	2024-11-21_14h12.29.385	delay discounting	2024.1.5	None	2024-11-21 14h12.43.600875 +0530				0.102564103		
11	30	7	7	1	50	0	168.6471059		168.6206415	168.6471059	169.6312605	169.6312605	169.6477545	170.9041057	l	1.26288	None	185266	1	2024-11-21_14h12.29.385	delay discounting	2024.1.5	None	2024-11-21 14h12.43.600875 +0530				0.246753247		
49	60	89	7	4	53	4	176.6651415		176.6543089	176.6651415	177.6655793	177.6655793	177.6655793	178.5723258	l	0.8982043	None	185266	1	2024-11-21_14h12.29.385	delay discounting	2024.1.5	None	2024-11-21 14h12.43.600875 +0530				0.002522357		
15	35	13	7	6	55	1	181.4656915		181.4554505	181.4656915	182.4659546	182.4659546	182.4659546	190.4909524	l	8.0058969	None	185266	1	2024-11-21_14h12.29.385	delay discounting	2024.1.5	None	2024-11-21 14h12.43.600875 +0530				0.102564103		
37	50	21	8	1	57	2	194.4829784		194.4595329	194.4829784	195.4679399	195.4679399	195.4838	201.2594699	l	5.7879153	None	185266	1	2024-11-21_14h12.29.385	delay discounting	2024.1.5	None	2024-11-21 14h12.43.600875 +0530				0.016731017		
40	55	62	8	2	58	3	201.2836049		201.2605111	201.2836049	202.2691097	202.2691097	202.28456	210.8928236	l	8.6201844	None	185266	1	2024-11-21_14h12.29.385	delay discounting	2024.1.5	None	2024-11-21 14h12.43.600875 +0530				0.006048387		
15	35	13	8	3	59	1	210.9180783		210.8936001	210.9180783	211.9023981	211.9023981	211.9190724	216.674872	l	4.7663959	None	185266	1	2024-11-21_14h12.29.385	delay discounting	2024.1.5	None	2024-11-21 14h12.43.600875 +0530				0.102564103		
11	30	7	8	5	61	0	219.8357035		219.8103591	219.8357035	220.8357296	220.8357296	220.8530864	221.5114741	l	0.6736906	None	185266	1	2024-11-21_14h12.29.385	delay discounting	2024.1.5	None	2024-11-21 14h12.43.600875 +0530				0.246753247		
37	50	21	9	0	63	2	225.6202895		225.6091898	225.6202895	226.6204056	226.6204056	226.6204056	227.4789302	l	0.856677	None	185266	1	2024-11-21_14h12.29.385	delay discounting	2024.1.5	None	2024-11-21 14h12.43.600875 +0530				0.016731017		
11	30	7	9	2	65	0	230.6365338		230.6102916	230.6365338	231.6209718	231.6209718	231.6375526	232.6095915	l	0.9750484	None	185266	1	2024-11-21_14h12.29.385	delay discounting	2024.1.5	None	2024-11-21 14h12.43.600875 +0530				0.246753247		
15	35	13	9	5	68	1	237.4874169		237.463882	237.4874169	238.4716203	238.4716203	238.4881528	239.4962381	l	1.0201165	None	185266	1	2024-11-21_14h12.29.385	delay discounting	2024.1.5	None	2024-11-21 14h12.43.600875 +0530				0.102564103		
11	30	7	10	0	70	0	241.5377686		241.5122045	241.5377686	242.5220549	242.5220549	242.5387335	243.2613049	l	0.7351742	None	185266	1	2024-11-21_14h12.29.385	delay discounting	2024.1.5	None	2024-11-21 14h12.43.600875 +0530				0.246753247		
37	50	21	10	1	71	2	243.2881521		243.2620587	243.2881521	244.2723112	244.2723112	244.2890303	245.5611561	l	1.2751363	None	185266	1	2024-11-21_14h12.29.385	delay discounting	2024.1.5	None	2024-11-21 14h12.43.600875 +0530				0.016731017		
15	35	13	10	4	74	1	250.0217885		249.9956737	250.0217885	251.0062721	251.0062721	251.0235776	251.7148244	l	0.7013387	None	185266	1	2024-11-21_14h12.29.385	delay discounting	2024.1.5	None	2024-11-21 14h12.43.600875 +0530				0.102564103		
40	55	62	10	6	76	3	253.6898454		253.6787669	253.6898454	254.6901609	254.6901609	254.6901609	255.8313035	l	1.1344948	None	185266	1	2024-11-21_14h12.29.385	delay discounting	2024.1.5	None	2024-11-21 14h12.43.600875 +0530				0.006048387		
37	50	21	11	0	77	2	255.8558199		255.8322221	255.8558199	256.8397674	256.8397674	256.8566859	257.9803942	l	1.1230592	None	185266	1	2024-11-21_14h12.29.385	delay discounting	2024.1.5	None	2024-11-21 14h12.43.600875 +0530				0.016731017		
15	35	13	11	1	78	1	258.0062027		257.9813353	258.0062027	258.9905033	258.9905033	259.006669	259.7625248	l	0.7675912	None	185266	1	2024-11-21_14h12.29.385	delay discounting	2024.1.5	None	2024-11-21 14h12.43.600875 +0530				0.102564103		
11	30	7	11	2	79	0	259.7736728		259.7632278	259.7736728	260.773829	260.773829	260.773829	261.3812185	l	0.6020002	None	185266	1	2024-11-21_14h12.29.385	delay discounting	2024.1.5	None	2024-11-21 14h12.43.600875 +0530				0.246753247		
40	55	62	12	2	86	3	280.0918006		280.0677815	280.0918006	281.0756697	281.0756697	281.0921851	281.8807605	l	0.7949756	None	185266	1	2024-11-21_14h12.29.385	delay discounting	2024.1.5	None	2024-11-21 14h12.43.600875 +0530				0.006048387		
49	60	89	12	3	87	4	281.908578		281.8814718	281.908578	282.8929213	282.8929213	282.9093938	284.4512314	l	1.5513611	None	185266	1	2024-11-21_14h12.29.385	delay discounting	2024.1.5	None	2024-11-21 14h12.43.600875 +0530				0.002522357		
11	30	7	12	4	88	0	284.4756909		284.4521949	284.4756909	285.4597868	285.4597868	285.4763767	287.4832672	l	2.0191033	None	185266	1	2024-11-21_14h12.29.385	delay discounting	2024.1.5	None	2024-11-21 14h12.43.600875 +0530				0.246753247		
15	35	13	12	5	89	1	287.5093461		287.4841112	287.5093461	288.4933464	288.4933464	288.5102073	290.0519462	l	1.5431042	None	185266	1	2024-11-21_14h12.29.385	delay discounting	2024.1.5	None	2024-11-21 14h12.43.600875 +0530				0.102564103		
37	50	21	12	6	90	2	290.0760013		290.0531467	290.0760013	291.0603331	291.0603331	291.0772943	292.3317819	l	1.2587159	None	185266	1	2024-11-21_14h12.29.385	delay discounting	2024.1.5	None	2024-11-21 14h12.43.600875 +0530				0.016731017		
15	35	13	13	1	92	1	294.8265506		294.8036694	294.8265506	295.8106744	295.8106744	295.8275856	296.9695971	l	1.1462184	None	185266	1	2024-11-21_14h12.29.385	delay discounting	2024.1.5	None	2024-11-21 14h12.43.600875 +0530				0.102564103		
37	50	21	13	2	93	2	296.993295		296.970791	296.993295	297.9775849	297.9775849	297.9945008	299.266745	l	1.2724129	None	185266	1	2024-11-21_14h12.29.385	delay discounting	2024.1.5	None	2024-11-21 14h12.43.600875 +0530				0.016731017		
11	30	7	13	4	95	0	301.3444804		301.3334318	301.3444804	302.3446959	302.3446959	302.3446959	303.700132	l	1.3529682	None	185266	1	2024-11-21_14h12.29.385	delay discounting	2024.1.5	None	2024-11-21 14h12.43.600875 +0530				0.246753247		
15	35	13	14	2	100	1	311.6784754		311.6528501	311.6784754	312.6626522	312.6626522	312.6788459	313.5363924	l	0.8678	None	185266	1	2024-11-21_14h12.29.385	delay discounting	2024.1.5	None	2024-11-21 14h12.43.600875 +0530				0.102564103		
37	50	21	14	3	101	2	313.5619129		313.5372635	313.5619129	314.5460566	314.5460566	314.5626594	315.8350248	l	1.2867337	None	185266	1	2024-11-21_14h12.29.385	delay discounting	2024.1.5	None	2024-11-21 14h12.43.600875 +0530				0.016731017		
40	55	62	14	4	102	3	315.8460859		315.8357878	315.8460859	316.8462502	316.8462502	316.8462502	317.6682606	l	0.8179786	None	185266	1	2024-11-21_14h12.29.385	delay discounting	2024.1.5	None	2024-11-21 14h12.43.600875 +0530				0.006048387		
11	30	7	14	5	103	0	317.6794241		317.6689915	317.6794241	318.6799964	318.6799964	318.6799964	319.5685216	l	0.8766969	None	185266	1	2024-11-21_14h12.29.385	delay discounting	2024.1.5	None	2024-11-21 14h12.43.600875 +0530				0.246753247		0.038632359
40	55	62	0	0	0	3	0.3449523		0.0443962	0.3449523	1.0291086	1.0291086	1.3476114	16.5200819	t	15.4810387	None	185266	1	2024-11-21_14h12.29.385	delay discounting	2024.1.5	None	2024-11-21 14h12.43.600875 +0530				0.006048387		
49	60	89	0	4	4	4	25.9000859		25.8891261	25.9000859	26.9003011	26.9003011	26.9003011	28.1886425	t	1.281071	None	185266	1	2024-11-21_14h12.29.385	delay discounting	2024.1.5	None	2024-11-21 14h12.43.600875 +0530				0.002522357		
15	35	13	0	5	5	1	28.2151941		28.1893449	28.2151941	29.2157591	29.2157591	29.2337315	29.7554475	t	0.5277133	None	185266	1	2024-11-21_14h12.29.385	delay discounting	2024.1.5	None	2024-11-21 14h12.43.600875 +0530				0.102564103		
37	50	21	0	6	6	2	29.7670278		29.7561598	29.7670278	30.7669217	30.7669217	30.7669217	31.0897732	t	0.3163964	None	185266	1	2024-11-21_14h12.29.385	delay discounting	2024.1.5	None	2024-11-21 14h12.43.600875 +0530				0.016731017		
15	35	13	1	0	7	1	31.1164999		31.0907323	31.1164999	32.1006996	32.1006996	32.1169889	32.4582107	t	0.3431554	None	185266	1	2024-11-21_14h12.29.385	delay discounting	2024.1.5	None	2024-11-21 14h12.43.600875 +0530				0.102564103		
11	30	7	1	2	9	0	33.6664823		33.6403787	33.6664823	34.6509451	34.6509451	34.6678028	35.2561931	t	0.596629	None	185266	1	2024-11-21_14h12.29.385	delay discounting	2024.1.5	None	2024-11-21 14h12.43.600875 +0530				0.246753247		
78	80	162	1	3	10	6	35.2834623		35.2569705	35.2834623	36.2676881	36.2676881	36.2843039	36.626342	t	0.3558808	None	185266	1	2024-11-21_14h12.29.385	delay discounting	2024.1.5	None	2024-11-21 14h12.43.600875 +0530				0.000158278		
67	75	119	1	4	11	5	36.6502314		36.627529	36.6502314	37.6361485	37.6361485	37.6515464	37.8966362	t	0.25402	None	185266	1	2024-11-21_14h12.29.385	delay discounting	2024.1.5	None	2024-11-21 14h12.43.600875 +0530				0.001003386		
37	50	21	1	5	12	2	37.9168954		37.8989181	37.9168954	38.9012066	38.9012066	38.9183073	39.1240372	t	0.2102121	None	185266	1	2024-11-21_14h12.29.385	delay discounting	2024.1.5	None	2024-11-21 14h12.43.600875 +0530				0.016731017		
40	55	62	2	1	15	3	41.8847452		41.8742549	41.8847452	42.8850863	42.8850863	42.8850863	43.5109353	t	0.6126947	None	185266	1	2024-11-21_14h12.29.385	delay discounting	2024.1.5	None	2024-11-21 14h12.43.600875 +0530				0.006048387		
78	80	162	2	2	16	6	43.5342225		43.5127714	43.5342225	44.5186702	44.5186702	44.5350001	45.0247075	t	0.501891	None	185266	1	2024-11-21_14h12.29.385	delay discounting	2024.1.5	None	2024-11-21 14h12.43.600875 +0530				0.000158278		
37	50	21	2	4	18	2	46.4014354		46.3776262	46.4014354	47.3853297	47.3853297	47.4022428	47.9769412	t	0.5899575	None	185266	1	2024-11-21_14h12.29.385	delay discounting	2024.1.5	None	2024-11-21 14h12.43.600875 +0530				0.016731017		
67	75	119	2	5	19	5	48.0010892		47.9780746	48.0010892	48.985521	48.985521	49.0024639	50.2079619	t	1.2093856	None	185266	1	2024-11-21_14h12.29.385	delay discounting	2024.1.5	None	2024-11-21 14h12.43.600875 +0530				0.001003386		
15	35	13	2	6	20	1	50.2348858		50.209179	50.2348858	51.2193267	51.2193267	51.2354998	55.0771423	t	3.8451583	None	185266	1	2024-11-21_14h12.29.385	delay discounting	2024.1.5	None	2024-11-21 14h12.43.600875 +0530				0.102564103		
78	80	162	3	1	22	6	56.6020922		56.5759139	56.6020922	57.5863778	57.5863778	57.6032329	60.6429141	t	3.0512341	None	185266	1	2024-11-21_14h12.29.385	delay discounting	2024.1.5	None	2024-11-21 14h12.43.600875 +0530				0.000158278		
40	55	62	3	2	23	3	60.6692833		60.6436296	60.6692833	61.653192	61.653192	61.6704687	63.0774142	t	1.4129954	None	185266	1	2024-11-21_14h12.29.385	delay discounting	2024.1.5	None	2024-11-21 14h12.43.600875 +0530				0.006048387		
15	35	13	3	3	24	1	63.1028792		63.0782706	63.1028792	64.0871674	64.0871674	64.1040754	65.626005	t	1.5256375	None	185266	1	2024-11-21_14h12.29.385	delay discounting	2024.1.5	None	2024-11-21 14h12.43.600875 +0530				0.102564103		
37	50	21	3	6	27	2	76.1541483		76.1305978	76.1541483	77.1385349	77.1385349	77.1550151	78.5113307	t	1.3612551	None	185266	1	2024-11-21_14h12.29.385	delay discounting	2024.1.5	None	2024-11-21 14h12.43.600875 +0530				0.016731017		
11	30	7	4	0	28	0	78.5378238		78.5121066	78.5378238	79.5223023	79.5223023	79.5387332	81.0440207	t	1.5092909	None	185266	1	2024-11-21_14h12.29.385	delay discounting	2024.1.5	None	2024-11-21 14h12.43.600875 +0530				0.246753247		
37	50	21	4	1	29	2	81.0717053		81.0447761	81.0717053	82.0554238	82.0554238	82.0727072	84.0461171	t	1.9861898	None	185266	1	2024-11-21_14h12.29.385	delay discounting	2024.1.5	None	2024-11-21 14h12.43.600875 +0530				0.016731017		
78	80	162	4	2	30	6	84.0717107		84.0470698	84.0717107	85.0557125	85.0557125	85.072669	87.4948675	t	2.4318441	None	185266	1	2024-11-21_14h12.29.385	delay discounting	2024.1.5	None	2024-11-21 14h12.43.600875 +0530				0.000158278		
67	75	119	4	3	31	5	87.522101		87.4956004	87.522101	88.5064854	88.5064854	88.5229315	90.7816657	t	2.2682081	None	185266	1	2024-11-21_14h12.29.385	delay discounting	2024.1.5	None	2024-11-21 14h12.43.600875 +0530				0.001003386		
15	35	13	4	4	32	1	90.8056863		90.7825925	90.8056863	91.7901034	91.7901034	91.8066635	96.2618498	t	4.4682445	None	185266	1	2024-11-21_14h12.29.385	delay discounting	2024.1.5	None	2024-11-21 14h12.43.600875 +0530				0.102564103		
49	60	89	4	6	34	4	101.2072317		101.1970748	101.2072317	102.2078115	102.2078115	102.2078115	108.3173483	t	6.1011455	None	185266	1	2024-11-21_14h12.29.385	delay discounting	2024.1.5	None	2024-11-21 14h12.43.600875 +0530				0.002522357		
78	80	162	5	0	35	6	108.3409444		108.3185635	108.3409444	109.32499	109.32499	109.3418461	117.9809085	t	8.6500666	None	185266	1	2024-11-21_14h12.29.385	delay discounting	2024.1.5	None	2024-11-21 14h12.43.600875 +0530				0.000158278		
15	35	13	5	1	36	1	117.992311		117.9816413	117.992311	118.991589	118.991589	118.991589	124.7683329	t	5.7700998	None	185266	1	2024-11-21_14h12.29.385	delay discounting	2024.1.5	None	2024-11-21 14h12.43.600875 +0530				0.102564103		
67	75	119	6	0	42	5	146.7120276		146.701173	146.7120276	147.7124508	147.7124508	147.7124508	148.6177571	t	0.8929426	None	185266	1	2024-11-21_14h12.29.385	delay discounting	2024.1.5	None	2024-11-21 14h12.43.600875 +0530				0.001003386		
78	80	162	6	2	44	6	150.6282013		150.6044335	150.6282013	151.6299877	151.6299877	151.6299877	154.2030347	t	2.5669649	None	185266	1	2024-11-21_14h12.29.385	delay discounting	2024.1.5	None	2024-11-21 14h12.43.600875 +0530				0.000158278		
49	60	89	6	4	46	4	156.0957324		156.0712492	156.0957324	157.0800225	157.0800225	157.0967982	158.3215231	t	1.2221383	None	185266	1	2024-11-21_14h12.29.385	delay discounting	2024.1.5	None	2024-11-21 14h12.43.600875 +0530				0.002522357		
40	55	62	7	0	49	3	165.8466386		165.8203238	165.8466386	166.8310673	166.8310673	166.8476286	168.6199352	t	1.7855284	None	185266	1	2024-11-21_14h12.29.385	delay discounting	2024.1.5	None	2024-11-21 14h12.43.600875 +0530				0.006048387		
78	80	162	7	2	51	6	170.9304185		170.9048351	170.9304185	171.9306174	171.9306174	171.9483927	173.1037413	t	1.16834	None	185266	1	2024-11-21_14h12.29.385	delay discounting	2024.1.5	None	2024-11-21 14h12.43.600875 +0530				0.000158278		
67	75	119	7	3	52	5	173.1146981		173.1044373	173.1146981	174.1152502	174.1152502	174.1152502	176.6535536	t	2.5277319	None	185266	1	2024-11-21_14h12.29.385	delay discounting	2024.1.5	None	2024-11-21 14h12.43.600875 +0530				0.001003386		
37	50	21	7	5	54	2	178.597974		178.5731666	178.597974	179.5825364	179.5825364	179.598613	181.4547831	t	1.8672785	None	185266	1	2024-11-21_14h12.29.385	delay discounting	2024.1.5	None	2024-11-21 14h12.43.600875 +0530				0.016731017		
67	75	119	8	0	56	5	190.5158181		190.4918832	190.5158181	191.5002622	191.5002622	191.5168982	194.4585078	t	2.9564511	None	185266	1	2024-11-21_14h12.29.385	delay discounting	2024.1.5	None	2024-11-21 14h12.43.600875 +0530				0.001003386		
49	60	89	8	4	60	4	216.7018063		216.6756097	216.7018063	217.6860836	217.6860836	217.7026416	219.8093898	t	2.1187467	None	185266	1	2024-11-21_14h12.29.385	delay discounting	2024.1.5	None	2024-11-21 14h12.43.600875 +0530				0.002522357		
78	80	162	8	6	62	6	221.5356314		221.5127793	221.5356314	222.5199874	222.5199874	222.5367968	225.6084799	t	3.0722896	None	185266	1	2024-11-21_14h12.29.385	delay discounting	2024.1.5	None	2024-11-21 14h12.43.600875 +0530				0.000158278		
67	75	119	9	1	64	5	227.5031697		227.480131	227.5031697	228.4872001	228.4872001	228.504133	230.6094393	t	2.1104872	None	185266	1	2024-11-21_14h12.29.385	delay discounting	2024.1.5	None	2024-11-21 14h12.43.600875 +0530				0.001003386		
49	60	89	9	3	66	4	232.6218536		232.610272	232.6218536	233.6211442	233.6211442	233.6211442	235.0613315	t	1.4351115	None	185266	1	2024-11-21_14h12.29.385	delay discounting	2024.1.5	None	2024-11-21 14h12.43.600875 +0530				0.002522357		
40	55	62	9	4	67	3	235.0871017		235.0620877	235.0871017	236.0714997	236.0714997	236.0877289	237.4626601	t	1.375214	None	185266	1	2024-11-21_14h12.29.385	delay discounting	2024.1.5	None	2024-11-21 14h12.43.600875 +0530				0.006048387		
78	80	162	9	6	69	6	239.5209468		239.4971783	239.5209468	240.5055025	240.5055025	240.5221592	241.5114308	t	0.9993306	None	185266	1	2024-11-21_14h12.29.385	delay discounting	2024.1.5	None	2024-11-21 14h12.43.600875 +0530				0.000158278		
49	60	89	10	2	72	4	245.5881037		245.5620131	245.5881037	246.5723111	246.5723111	246.5890913	247.8980082	t	1.3168254	None	185266	1	2024-11-21_14h12.29.385	delay discounting	2024.1.5	None	2024-11-21 14h12.43.600875 +0530				0.002522357		
67	75	119	10	3	73	5	247.9216102		247.8992477	247.9216102	248.9062204	248.9062204	248.9228559	249.9949368	t	1.086716	None	185266	1	2024-11-21_14h12.29.385	delay discounting	2024.1.5	None	2024-11-21 14h12.43.600875 +0530				0.001003386		
78	80	162	10	5	75	6	251.7390894		251.7160227	251.7390894	252.723262	252.723262	252.7397057	253.6780324	t	0.9432277	None	185266	1	2024-11-21_14h12.29.385	delay discounting	2024.1.5	None	2024-11-21 14h12.43.600875 +0530				0.000158278		
67	75	119	11	3	80	5	261.406421		261.3820797	261.406421	262.3908529	262.3908529	262.4075187	265.2154273	t	2.806023	None	185266	1	2024-11-21_14h12.29.385	delay discounting	2024.1.5	None	2024-11-21 14h12.43.600875 +0530				0.001003386		
78	80	162	11	4	81	6	265.2404536		265.216603	265.2404536	266.224445	266.224445	266.2412192	269.2298717	t	2.9916338	None	185266	1	2024-11-21_14h12.29.385	delay discounting	2024.1.5	None	2024-11-21 14h12.43.600875 +0530				0.000158278		
49	60	89	11	5	82	4	269.2573045		269.2306258	269.2573045	270.2416453	270.2416453	270.2583599	273.6635911	t	3.4145872	None	185266	1	2024-11-21_14h12.29.385	delay discounting	2024.1.5	None	2024-11-21 14h12.43.600875 +0530				0.002522357		
40	55	62	11	6	83	3	273.6749323		273.664349	273.6749323	274.6749454	274.6749454	274.6749454	275.9142547	t	1.2348723	None	185266	1	2024-11-21_14h12.29.385	delay discounting	2024.1.5	None	2024-11-21 14h12.43.600875 +0530				0.006048387		
78	80	162	12	0	84	6	275.9413397		275.9150053	275.9413397	276.9256637	276.9256637	276.9418075	278.0342432	t	1.1018332	None	185266	1	2024-11-21_14h12.29.385	delay discounting	2024.1.5	None	2024-11-21 14h12.43.600875 +0530				0.000158278		
67	75	119	12	1	85	5	278.0581668		278.0354702	278.0581668	279.0581206	279.0581206	279.0757982	280.0668554	t	0.9902974	None	185266	1	2024-11-21_14h12.29.385	delay discounting	2024.1.5	None	2024-11-21 14h12.43.600875 +0530				0.001003386		
67	75	119	13	0	91	5	292.343916		292.3324881	292.343916	293.3437013	293.3437013	293.3437013	294.802457	t	1.4464136	None	185266	1	2024-11-21_14h12.29.385	delay discounting	2024.1.5	None	2024-11-21 14h12.43.600875 +0530				0.001003386		
78	80	162	13	3	94	6	299.2776232		299.2674958	299.2776232	300.2777924	300.2777924	300.2777924	301.332704	t	1.0417235	None	185266	1	2024-11-21_14h12.29.385	delay discounting	2024.1.5	None	2024-11-21 14h12.43.600875 +0530				0.000158278		
40	55	62	13	5	96	3	303.7115234		303.7008343	303.7115234	304.7119268	304.7119268	304.7119268	306.4505816	t	1.7372095	None	185266	1	2024-11-21_14h12.29.385	delay discounting	2024.1.5	None	2024-11-21 14h12.43.600875 +0530				0.006048387		
49	60	89	13	6	97	4	306.4614703		306.4513165	306.4614703	307.4784798	307.4784798	307.4784798	308.2034859	t	0.7077209	None	185266	1	2024-11-21_14h12.29.385	delay discounting	2024.1.5	None	2024-11-21 14h12.43.600875 +0530				0.002522357		
67	75	119	14	0	98	5	308.2278213		308.2047239	308.2278213	309.2125212	309.2125212	309.2287679	309.8177341	t	0.5977006	None	185266	1	2024-11-21_14h12.29.385	delay discounting	2024.1.5	None	2024-11-21 14h12.43.600875 +0530				0.001003386		
78	80	162	14	1	99	6	309.844515		309.8183947	309.844515	310.8289834	310.8289834	310.8458463	311.6519139	t	0.8111889	None	185266	1	2024-11-21_14h12.29.385	delay discounting	2024.1.5	None	2024-11-21 14h12.43.600875 +0530				0.000158278		
49	60	89	14	6	104	4	319.5956401		319.5692777	319.5956401	320.5800202	320.5800202	320.59667	322.5694984	t	1.9754798	None	185266	1	2024-11-21_14h12.29.385	delay discounting	2024.1.5	None	2024-11-21 14h12.43.600875 +0530				0.002522357		
