reward_today	future_reward	delay	trials.thisRepN	trials.thisTrialN	trials.thisN	trials.thisIndex	thisRow.t	notes	trial.started	fixation.started	text.started	key_resp.started	fixation.stopped	trial.stopped	key_resp.keys	key_resp.rt	key_resp.duration	participant	session	date	expName	psychopyVersion	frameRate	expStart					k		
11	30	7	0	3	3	0	8.9058157		8.8943755	8.9058157	9.9058823	9.9058823	9.9058823	10.6293856	l	0.7107102	None	512591	1	2024-11-21_14h19.28.265	delay discounting	2024.1.5	None	2024-11-21 14h19.36.042501 +0530					0.246753247		
37	50	21	0	4	4	2	10.6544608		10.6303258	10.6544608	11.6396107	11.6396107	11.6560936	12.7146119	l	1.0687908	None	512591	1	2024-11-21_14h19.28.265	delay discounting	2024.1.5	None	2024-11-21 14h19.36.042501 +0530					0.016731017		
15	35	13	0	6	6	1	14.45429		14.4319349	14.45429	15.4393857	15.4393857	15.4563672	16.2966308	l	0.846145	None	512591	1	2024-11-21_14h19.28.265	delay discounting	2024.1.5	None	2024-11-21 14h19.36.042501 +0530					0.102564103		
11	30	7	1	2	9	0	20.1563765		20.1299837	20.1563765	21.1406504	21.1406504	21.1575311	21.9676927	l	0.8184097	None	512591	1	2024-11-21_14h19.28.265	delay discounting	2024.1.5	None	2024-11-21 14h19.36.042501 +0530					0.246753247		
15	35	13	1	3	10	1	21.9896906		21.9689411	21.9896906	22.9739486	22.9739486	22.9908587	23.8136745	l	0.8345177	None	512591	1	2024-11-21_14h19.28.265	delay discounting	2024.1.5	None	2024-11-21 14h19.36.042501 +0530					0.102564103		
49	60	89	1	4	11	4	23.839674		23.814348	23.839674	24.8398545	24.8398545	24.857557	26.2620192	l	1.4185581	None	512591	1	2024-11-21_14h19.28.265	delay discounting	2024.1.5	None	2024-11-21 14h19.36.042501 +0530					0.002522357		
37	50	21	1	6	13	2	30.4738566		30.4542041	30.4738566	31.4738409	31.4738409	31.4911226	32.2490217	l	0.7674927	None	512591	1	2024-11-21_14h19.28.265	delay discounting	2024.1.5	None	2024-11-21 14h19.36.042501 +0530					0.016731017		
15	35	13	2	1	15	1	34.007498		33.9837889	34.007498	34.9924312	34.9924312	35.0083137	35.880679	l	0.884903	None	512591	1	2024-11-21_14h19.28.265	delay discounting	2024.1.5	None	2024-11-21 14h19.36.042501 +0530					0.102564103		
40	55	62	2	4	18	3	42.425173		42.4023226	42.425173	43.4251907	43.4251907	43.4429178	44.8177404	l	1.3764201	None	512591	1	2024-11-21_14h19.28.265	delay discounting	2024.1.5	None	2024-11-21 14h19.36.042501 +0530					0.006048387		
37	50	21	2	5	19	2	44.8420171		44.8189268	44.8420171	45.826672	45.826672	45.8431716	46.9486482	l	1.1127763	None	512591	1	2024-11-21_14h19.28.265	delay discounting	2024.1.5	None	2024-11-21 14h19.36.042501 +0530					0.016731017		
11	30	7	2	6	20	0	46.9755773		46.949395	46.9755773	47.959972	47.959972	47.9770524	48.9820551	l	1.0183665	None	512591	1	2024-11-21_14h19.28.265	delay discounting	2024.1.5	None	2024-11-21 14h19.36.042501 +0530					0.246753247		
49	60	89	3	0	21	4	49.0090304		48.9828173	49.0090304	50.0096831	50.0096831	50.0272355	50.9844577	l	0.9658835	None	512591	1	2024-11-21_14h19.28.265	delay discounting	2024.1.5	None	2024-11-21 14h19.36.042501 +0530					0.002522357		
37	50	21	3	1	22	2	51.0094129		50.9859136	51.0094129	52.0095273	52.0095273	52.0270565	52.8652324	l	0.8470246	None	512591	1	2024-11-21_14h19.28.265	delay discounting	2024.1.5	None	2024-11-21 14h19.36.042501 +0530					0.016731017		
40	55	62	3	2	23	3	52.8771351		52.865906	52.8771351	53.8770915	53.8770915	53.8770915	54.9008296	l	1.0206857	None	512591	1	2024-11-21_14h19.28.265	delay discounting	2024.1.5	None	2024-11-21 14h19.36.042501 +0530					0.006048387		
67	75	119	3	3	24	5	54.9263151		54.901599	54.9263151	55.9109412	55.9109412	55.92799	56.8995094	l	0.9715076	None	512591	1	2024-11-21_14h19.28.265	delay discounting	2024.1.5	None	2024-11-21 14h19.36.042501 +0530					0.001003386		
11	30	7	3	4	25	0	56.9264143		56.9002759	56.9264143	57.9267613	57.9267613	57.9444437	58.8506856	l	0.9164208	None	512591	1	2024-11-21_14h19.28.265	delay discounting	2024.1.5	None	2024-11-21 14h19.36.042501 +0530					0.246753247		
15	35	13	3	6	27	1	60.6448496		60.6336268	60.6448496	61.6770344	61.6770344	61.6770344	62.5672348	l	0.8829736	None	512591	1	2024-11-21_14h19.28.265	delay discounting	2024.1.5	None	2024-11-21 14h19.36.042501 +0530					0.102564103		
11	30	7	4	1	29	0	64.7604232		64.7367374	64.7604232	65.7607143	65.7607143	65.7785835	66.5694987	l	0.7955037	None	512591	1	2024-11-21_14h19.28.265	delay discounting	2024.1.5	None	2024-11-21 14h19.36.042501 +0530					0.246753247		
37	50	21	4	2	30	2	66.5940393		66.5704688	66.5940393	67.5790634	67.5790634	67.5948539	68.5862482	l	0.9981018	None	512591	1	2024-11-21_14h19.28.265	delay discounting	2024.1.5	None	2024-11-21 14h19.36.042501 +0530					0.016731017		
49	60	89	4	3	31	4	68.6109814		68.5872597	68.6109814	69.6112103	69.6112103	69.6290764	71.3847293	l	1.7588806	None	512591	1	2024-11-21_14h19.28.265	delay discounting	2024.1.5	None	2024-11-21 14h19.36.042501 +0530					0.002522357		
40	55	62	4	4	32	3	71.4115391		71.3855084	71.4115391	72.3955524	72.3955524	72.4126784	73.4010435	l	0.9910203	None	512591	1	2024-11-21_14h19.28.265	delay discounting	2024.1.5	None	2024-11-21 14h19.36.042501 +0530					0.006048387		
15	35	13	4	6	34	1	78.3633713		78.3521479	78.3633713	79.3633738	79.3633738	79.3633738	83.0853935	l	3.7116651	None	512591	1	2024-11-21_14h19.28.265	delay discounting	2024.1.5	None	2024-11-21 14h19.36.042501 +0530					0.102564103		
11	30	7	5	3	38	0	90.3298269		90.30575	90.3298269	91.3146076	91.3146076	91.3310504	91.970136	l	0.654161	None	512591	1	2024-11-21_14h19.28.265	delay discounting	2024.1.5	None	2024-11-21 14h19.36.042501 +0530					0.246753247		
37	50	21	5	5	40	2	93.7642388		93.7376439	93.7642388	94.7638085	94.7638085	94.7816358	95.7702804	l	0.99902	None	512591	1	2024-11-21_14h19.28.265	delay discounting	2024.1.5	None	2024-11-21 14h19.36.042501 +0530					0.016731017		
15	35	13	5	6	41	1	95.781925		95.7710566	95.781925	96.7818331	96.7818331	96.7818331	97.5560465	l	0.7663576	None	512591	1	2024-11-21_14h19.28.265	delay discounting	2024.1.5	None	2024-11-21 14h19.36.042501 +0530					0.102564103		
37	50	21	6	0	42	2	97.5807157		97.5569125	97.5807157	98.5654353	98.5654353	98.5818471	99.6541042	l	1.0854355	None	512591	1	2024-11-21_14h19.28.265	delay discounting	2024.1.5	None	2024-11-21 14h19.36.042501 +0530					0.016731017		
11	30	7	6	3	45	0	103.2653499		103.2549436	103.2653499	104.2663449	104.2663449	104.2663449	105.1377317	l	0.8637532	None	512591	1	2024-11-21_14h19.28.265	delay discounting	2024.1.5	None	2024-11-21 14h19.36.042501 +0530					0.246753247		
15	35	13	6	6	48	1	109.0486084		109.0256347	109.0486084	110.0330153	110.0330153	110.0499481	110.8892831	l	0.8484988	None	512591	1	2024-11-21_14h19.28.265	delay discounting	2024.1.5	None	2024-11-21 14h19.36.042501 +0530					0.102564103		
49	60	89	7	1	50	4	112.8658447		112.8406608	112.8658447	113.865698	113.865698	113.8835428	115.0413278	l	1.1643038	None	512591	1	2024-11-21_14h19.28.265	delay discounting	2024.1.5	None	2024-11-21 14h19.36.042501 +0530					0.002522357		
11	30	7	7	2	51	0	115.0657826		115.0422688	115.0657826	116.0658752	116.0658752	116.0831762	116.8724065	l	0.7975739	None	512591	1	2024-11-21_14h19.28.265	delay discounting	2024.1.5	None	2024-11-21 14h19.36.042501 +0530					0.246753247		
15	35	13	7	3	52	1	116.89925		116.8731412	116.89925	117.8838894	117.8838894	117.9003967	118.8762749	l	0.9848576	None	512591	1	2024-11-21_14h19.28.265	delay discounting	2024.1.5	None	2024-11-21 14h19.36.042501 +0530					0.102564103		
40	55	62	7	5	54	3	120.8838149		120.873146	120.8838149	121.8847297	121.8847297	121.8847297	122.9926972	l	1.103243	None	512591	1	2024-11-21_14h19.28.265	delay discounting	2024.1.5	None	2024-11-21 14h19.36.042501 +0530					0.006048387		
37	50	21	7	6	55	2	123.0167446		122.993648	123.0167446	124.000999	124.000999	124.0176372	125.1928722	l	1.1901102	None	512591	1	2024-11-21_14h19.28.265	delay discounting	2024.1.5	None	2024-11-21 14h19.36.042501 +0530					0.016731017		
11	30	7	8	0	56	0	125.217114		125.1939575	125.217114	126.2014461	126.2014461	126.2174806	127.1570422	l	0.9454985	None	512591	1	2024-11-21_14h19.28.265	delay discounting	2024.1.5	None	2024-11-21 14h19.36.042501 +0530					0.246753247		
37	50	21	8	4	60	2	132.8011396		132.7785551	132.8011396	133.7858258	133.7858258	133.8019662	134.6733557	l	0.8787583	None	512591	1	2024-11-21_14h19.28.265	delay discounting	2024.1.5	None	2024-11-21 14h19.36.042501 +0530					0.016731017		
15	35	13	8	6	62	1	136.6516016		136.6288651	136.6516016	137.6515176	137.6515176	137.6694549	138.5573223	l	0.8942486	None	512591	1	2024-11-21_14h19.28.265	delay discounting	2024.1.5	None	2024-11-21 14h19.36.042501 +0530					0.102564103		
37	50	21	9	1	64	2	140.7850369		140.7586122	140.7850369	141.7852158	141.7852158	141.8032414	142.8445844	l	1.0410829	None	512591	1	2024-11-21_14h19.28.265	delay discounting	2024.1.5	None	2024-11-21 14h19.36.042501 +0530					0.016731017		
15	35	13	9	4	67	1	146.5363423		146.5261526	146.5363423	147.5536898	147.5536898	147.5536898	148.4621658	l	0.8995507	None	512591	1	2024-11-21_14h19.28.265	delay discounting	2024.1.5	None	2024-11-21 14h19.36.042501 +0530					0.102564103		
11	30	7	9	6	69	0	151.7194555		151.6931389	151.7194555	152.7042531	152.7042531	152.7207845	153.3606083	l	0.6465822	None	512591	1	2024-11-21_14h19.28.265	delay discounting	2024.1.5	None	2024-11-21 14h19.36.042501 +0530					0.246753247		
37	50	21	10	1	71	2	155.2366952		155.2116969	155.2366952	156.2206058	156.2206058	156.2376057	157.8803173	l	1.653994	None	512591	1	2024-11-21_14h19.28.265	delay discounting	2024.1.5	None	2024-11-21 14h19.36.042501 +0530					0.016731017		
49	60	89	10	2	72	4	157.9035739		157.881561	157.9035739	158.8876759	158.8876759	158.9045873	160.059676	l	1.1684716	None	512591	1	2024-11-21_14h19.28.265	delay discounting	2024.1.5	None	2024-11-21 14h19.36.042501 +0530					0.002522357		
15	35	13	10	4	74	1	161.9538764		161.9318982	161.9538764	162.9382661	162.9382661	162.9556247	163.9600984	l	1.0110923	None	512591	1	2024-11-21_14h19.28.265	delay discounting	2024.1.5	None	2024-11-21 14h19.36.042501 +0530					0.102564103		
11	30	7	10	6	76	0	166.4876981		166.4616918	166.4876981	167.4724354	167.4724354	167.4893851	168.2108074	l	0.7310477	None	512591	1	2024-11-21_14h19.28.265	delay discounting	2024.1.5	None	2024-11-21 14h19.36.042501 +0530					0.246753247		
11	30	7	11	0	77	0	168.2224309		168.2115529	168.2224309	169.2223608	169.2223608	169.2223608	170.0447141	l	0.8079125	None	512591	1	2024-11-21_14h19.28.265	delay discounting	2024.1.5	None	2024-11-21 14h19.36.042501 +0530					0.246753247		
15	35	13	11	1	78	1	170.0717205		170.0454694	170.0717205	171.0557376	171.0557376	171.0725104	171.7978516	l	0.7254963	None	512591	1	2024-11-21_14h19.28.265	delay discounting	2024.1.5	None	2024-11-21 14h19.36.042501 +0530					0.102564103		
40	55	62	11	5	82	3	177.9554088		177.9298867	177.9554088	178.9402614	178.9402614	178.9565731	180.5828966	l	1.6396571	None	512591	1	2024-11-21_14h19.28.265	delay discounting	2024.1.5	None	2024-11-21 14h19.36.042501 +0530					0.006048387		
37	50	21	11	6	83	2	180.6054617		180.5840932	180.6054617	181.5901911	181.5901911	181.6072857	182.8785226	l	1.2743515	None	512591	1	2024-11-21_14h19.28.265	delay discounting	2024.1.5	None	2024-11-21 14h19.36.042501 +0530					0.016731017		
15	35	13	12	0	84	1	182.890232		182.8792289	182.890232	183.890557	183.890557	183.890557	185.0143377	l	1.1140053	None	512591	1	2024-11-21_14h19.28.265	delay discounting	2024.1.5	None	2024-11-21 14h19.36.042501 +0530					0.102564103		
37	50	21	12	2	86	2	186.8061735		186.7809738	186.8061735	187.7901353	187.7901353	187.807609	189.8957619	l	2.1018478	None	512591	1	2024-11-21_14h19.28.265	delay discounting	2024.1.5	None	2024-11-21 14h19.36.042501 +0530					0.016731017		
11	30	7	12	4	88	0	191.5739881		191.5627629	191.5739881	192.5740882	192.5740882	192.5740882	193.3159236	l	0.7240506	None	512591	1	2024-11-21_14h19.28.265	delay discounting	2024.1.5	None	2024-11-21 14h19.36.042501 +0530					0.246753247		
11	30	7	13	1	92	0	199.2078738		199.1980637	199.2078738	200.2087296	200.2087296	200.2087296	200.9141583	l	0.7013632	None	512591	1	2024-11-21_14h19.28.265	delay discounting	2024.1.5	None	2024-11-21 14h19.36.042501 +0530					0.246753247		
15	35	13	13	3	94	1	202.758128		202.7351891	202.758128	203.7428737	203.7428737	203.7595772	204.9670203	l	1.2084434	None	512591	1	2024-11-21_14h19.28.265	delay discounting	2024.1.5	None	2024-11-21 14h19.36.042501 +0530					0.102564103		
37	50	21	13	5	96	2	206.858646		206.8331262	206.858646	207.8431136	207.8431136	207.8599209	209.0315223	l	1.1834836	None	512591	1	2024-11-21_14h19.28.265	delay discounting	2024.1.5	None	2024-11-21 14h19.36.042501 +0530					0.016731017		
40	55	62	14	1	99	3	212.9090904		212.8864388	212.9090904	213.8934339	213.8934339	213.9104097	214.6840867	l	0.7586027	None	512591	1	2024-11-21_14h19.28.265	delay discounting	2024.1.5	None	2024-11-21 14h19.36.042501 +0530					0.006048387		
11	30	7	14	2	100	0	214.7094429		214.6852862	214.7094429	215.7092474	215.7092474	215.7274359	216.4321703	l	0.7142739	None	512591	1	2024-11-21_14h19.28.265	delay discounting	2024.1.5	None	2024-11-21 14h19.36.042501 +0530					0.246753247		
15	35	13	14	6	104	1	221.8606602		221.8503668	221.8606602	222.8611516	222.8611516	222.8611516	224.0864845	l	1.2188127	None	512591	1	2024-11-21_14h19.28.265	delay discounting	2024.1.5	None	2024-11-21 14h19.36.042501 +0530					0.102564103		0.010144527
67	75	119	0	0	0	5	0.2364424		0.0473795	0.2364424	1.0042688	1.0042688	1.2386912	4.9697479	t	3.9505151	None	512591	1	2024-11-21_14h19.28.265	delay discounting	2024.1.5	None	2024-11-21 14h19.36.042501 +0530					0.001003386		
49	60	89	0	1	1	4	4.9862707		4.9711899	4.9862707	5.9719278	5.9719278	5.9884941	6.9974888	t	1.016405	None	512591	1	2024-11-21_14h19.28.265	delay discounting	2024.1.5	None	2024-11-21 14h19.36.042501 +0530					0.002522357		
40	55	62	0	2	2	3	7.020396		6.9987032	7.020396	8.0056192	8.0056192	8.0224524	8.8936392	t	0.8765226	None	512591	1	2024-11-21_14h19.28.265	delay discounting	2024.1.5	None	2024-11-21 14h19.36.042501 +0530					0.006048387		
78	80	162	0	5	5	6	12.7389064		12.715852	12.7389064	13.7230537	13.7230537	13.7401252	14.4307717	t	0.7009303	None	512591	1	2024-11-21_14h19.28.265	delay discounting	2024.1.5	None	2024-11-21 14h19.36.042501 +0530					0.000158278		
78	80	162	1	0	7	6	16.3223481		16.2975935	16.3223481	17.3236637	17.3236637	17.3236637	18.0987464	t	0.7615288	None	512591	1	2024-11-21_14h19.28.265	delay discounting	2024.1.5	None	2024-11-21 14h19.36.042501 +0530					0.000158278		
40	55	62	1	1	8	3	18.1226112		18.0999835	18.1226112	19.1070126	19.1070126	19.1240268	20.1292253	t	1.0146094	None	512591	1	2024-11-21_14h19.28.265	delay discounting	2024.1.5	None	2024-11-21 14h19.36.042501 +0530					0.006048387		
67	75	119	1	5	12	5	26.2893498		26.2628463	26.2893498	27.2746473	27.2746473	27.290973	30.4526005	t	3.1684296	None	512591	1	2024-11-21_14h19.28.265	delay discounting	2024.1.5	None	2024-11-21 14h19.36.042501 +0530					0.001003386		
78	80	162	2	0	14	6	32.2740228		32.2497722	32.2740228	33.2586723	33.2586723	33.2752291	33.9828554	t	0.7184424	None	512591	1	2024-11-21_14h19.28.265	delay discounting	2024.1.5	None	2024-11-21 14h19.36.042501 +0530					0.000158278		
67	75	119	2	2	16	5	35.9078091		35.8814379	35.9078091	36.9079426	36.9079426	36.925569	37.8509985	t	0.9379853	None	512591	1	2024-11-21_14h19.28.265	delay discounting	2024.1.5	None	2024-11-21 14h19.36.042501 +0530					0.001003386		
49	60	89	2	3	17	4	37.8747985		37.8523143	37.8747985	38.8587311	38.8587311	38.8750632	42.4010174	t	3.5090367	None	512591	1	2024-11-21_14h19.28.265	delay discounting	2024.1.5	None	2024-11-21 14h19.36.042501 +0530					0.002522357		
78	80	162	3	5	26	6	58.8765518		58.8516967	58.8765518	59.8610884	59.8610884	59.8783547	60.6329334	t	0.7577749	None	512591	1	2024-11-21_14h19.28.265	delay discounting	2024.1.5	None	2024-11-21 14h19.36.042501 +0530					0.000158278		
78	80	162	4	0	28	6	62.5936878		62.5679792	62.5936878	63.5783565	63.5783565	63.5951734	64.7354057	t	1.1265014	None	512591	1	2024-11-21_14h19.28.265	delay discounting	2024.1.5	None	2024-11-21 14h19.36.042501 +0530					0.000158278		
67	75	119	4	5	33	5	73.4125391		73.4017717	73.4125391	74.4127942	74.4127942	74.4127942	78.3513534	t	3.9280085	None	512591	1	2024-11-21_14h19.28.265	delay discounting	2024.1.5	None	2024-11-21 14h19.36.042501 +0530					0.001003386		
78	80	162	5	0	35	6	83.1124924		83.0862071	83.1124924	84.0969633	84.0969633	84.1138006	85.8550578	t	1.7448935	None	512591	1	2024-11-21_14h19.28.265	delay discounting	2024.1.5	None	2024-11-21 14h19.36.042501 +0530					0.000158278		
49	60	89	5	1	36	4	85.8796227		85.8563208	85.8796227	86.863567	86.863567	86.8805006	88.1539201	t	1.2863837	None	512591	1	2024-11-21_14h19.28.265	delay discounting	2024.1.5	None	2024-11-21 14h19.36.042501 +0530					0.002522357		
40	55	62	5	2	37	3	88.1798687		88.1547095	88.1798687	89.1645214	89.1645214	89.1812609	90.3048241	t	1.1277208	None	512591	1	2024-11-21_14h19.28.265	delay discounting	2024.1.5	None	2024-11-21 14h19.36.042501 +0530					0.006048387		
67	75	119	5	4	39	5	91.9967032		91.9709402	91.9967032	92.9971951	92.9971951	93.0146502	93.736855	t	0.7354908	None	512591	1	2024-11-21_14h19.28.265	delay discounting	2024.1.5	None	2024-11-21 14h19.36.042501 +0530					0.001003386		
67	75	119	6	1	43	5	99.6807527		99.6549108	99.6807527	100.6655764	100.6655764	100.6824266	101.5045114	t	0.8364272	None	512591	1	2024-11-21_14h19.28.265	delay discounting	2024.1.5	None	2024-11-21 14h19.36.042501 +0530					0.001003386		
78	80	162	6	2	44	6	101.530828		101.5055057	101.530828	102.5157537	102.5157537	102.5476953	103.2541375	t	0.7341167	None	512591	1	2024-11-21_14h19.28.265	delay discounting	2024.1.5	None	2024-11-21 14h19.36.042501 +0530					0.000158278		
40	55	62	6	4	46	3	105.1489309		105.1384687	105.1489309	106.1494235	106.1494235	106.1494235	107.2224814	t	1.0659976	None	512591	1	2024-11-21_14h19.28.265	delay discounting	2024.1.5	None	2024-11-21 14h19.36.042501 +0530					0.006048387		
49	60	89	6	5	47	4	107.2485156		107.2234086	107.2485156	108.2327653	108.2327653	108.2497137	109.0243592	t	0.7880694	None	512591	1	2024-11-21_14h19.28.265	delay discounting	2024.1.5	None	2024-11-21 14h19.36.042501 +0530					0.002522357		
67	75	119	7	0	49	5	110.9154914		110.8900591	110.9154914	111.9000647	111.9000647	111.9164725	112.83988	t	0.9235513	None	512591	1	2024-11-21_14h19.28.265	delay discounting	2024.1.5	None	2024-11-21 14h19.36.042501 +0530					0.001003386		
78	80	162	7	4	53	6	118.8994967		118.8773095	118.8994967	119.8841171	119.8841171	119.9006828	120.8723755	t	0.9730906	None	512591	1	2024-11-21_14h19.28.265	delay discounting	2024.1.5	None	2024-11-21 14h19.36.042501 +0530					0.000158278		
49	60	89	8	1	57	4	127.1837174		127.1577559	127.1837174	128.1839625	128.1839625	128.2017515	128.8426763	t	0.6455013	None	512591	1	2024-11-21_14h19.28.265	delay discounting	2024.1.5	None	2024-11-21 14h19.36.042501 +0530					0.002522357		
78	80	162	8	2	58	6	128.8671552		128.8435594	128.8671552	129.8520103	129.8520103	129.8843682	130.6773135	t	0.8056913	None	512591	1	2024-11-21_14h19.28.265	delay discounting	2024.1.5	None	2024-11-21 14h19.36.042501 +0530					0.000158278		
40	55	62	8	3	59	3	130.7004141		130.6785922	130.7004141	131.6853882	131.6853882	131.7019332	132.7773744	t	1.0800617	None	512591	1	2024-11-21_14h19.28.265	delay discounting	2024.1.5	None	2024-11-21 14h19.36.042501 +0530					0.006048387		
67	75	119	8	5	61	5	134.6855472		134.674046	134.6855472	135.6861287	135.6861287	135.6861287	136.6276862	t	0.9332013	None	512591	1	2024-11-21_14h19.28.265	delay discounting	2024.1.5	None	2024-11-21 14h19.36.042501 +0530					0.001003386		
40	55	62	9	0	63	3	138.5688195		138.5580935	138.5688195	139.5693478	139.5693478	139.5693478	140.7578628	t	1.1770982	None	512591	1	2024-11-21_14h19.28.265	delay discounting	2024.1.5	None	2024-11-21 14h19.36.042501 +0530					0.006048387		
78	80	162	9	2	65	6	142.8688549		142.8458174	142.8688549	143.8530904	143.8530904	143.8699643	144.7581472	t	0.8882615	None	512591	1	2024-11-21_14h19.28.265	delay discounting	2024.1.5	None	2024-11-21 14h19.36.042501 +0530					0.000158278		
67	75	119	9	3	66	5	144.770073		144.7588741	144.770073	145.7699935	145.7699935	145.7699935	146.5254624	t	0.7529005	None	512591	1	2024-11-21_14h19.28.265	delay discounting	2024.1.5	None	2024-11-21 14h19.36.042501 +0530					0.001003386		
49	60	89	9	5	68	4	148.4858882		148.4631082	148.4858882	149.4705257	149.4705257	149.4871136	151.692364	t	2.2087496	None	512591	1	2024-11-21_14h19.28.265	delay discounting	2024.1.5	None	2024-11-21 14h19.36.042501 +0530					0.002522357		
78	80	162	10	0	70	6	153.3864511		153.3613821	153.3864511	154.3706031	154.3706031	154.3875177	155.2109198	t	0.8275558	None	512591	1	2024-11-21_14h19.28.265	delay discounting	2024.1.5	None	2024-11-21 14h19.36.042501 +0530					0.000158278		
67	75	119	10	3	73	5	160.0709697		160.0604307	160.0709697	161.0718101	161.0718101	161.0718101	161.9306321	t	0.8494857	None	512591	1	2024-11-21_14h19.28.265	delay discounting	2024.1.5	None	2024-11-21 14h19.36.042501 +0530					0.001003386		
40	55	62	10	5	75	3	163.9714006		163.9608511	163.9714006	164.9725771	164.9725771	164.9725771	166.4609292	t	1.482141	None	512591	1	2024-11-21_14h19.28.265	delay discounting	2024.1.5	None	2024-11-21 14h19.36.042501 +0530					0.006048387		
67	75	119	11	2	79	5	171.8217844		171.7991933	171.8217844	172.8063383	172.8063383	172.8221709	173.5958694	t	0.7827992	None	512591	1	2024-11-21_14h19.28.265	delay discounting	2024.1.5	None	2024-11-21 14h19.36.042501 +0530					0.001003386		
49	60	89	11	3	80	4	173.6219801		173.5969875	173.6219801	174.6062476	174.6062476	174.6225269	175.9635517	t	1.3539761	None	512591	1	2024-11-21_14h19.28.265	delay discounting	2024.1.5	None	2024-11-21 14h19.36.042501 +0530					0.002522357		
78	80	162	11	4	81	6	175.9887371		175.9646052	175.9887371	176.9732044	176.9732044	176.9894386	177.9290885	t	0.9447506	None	512591	1	2024-11-21_14h19.28.265	delay discounting	2024.1.5	None	2024-11-21 14h19.36.042501 +0530					0.000158278		
78	80	162	12	1	85	6	185.0395805		185.0152791	185.0395805	186.023728	186.023728	186.0402311	186.7800472	t	0.7469978	None	512591	1	2024-11-21_14h19.28.265	delay discounting	2024.1.5	None	2024-11-21 14h19.36.042501 +0530					0.000158278		
40	55	62	12	3	87	3	189.9072854		189.896521	189.9072854	190.9078107	190.9078107	190.9078107	191.5620142	t	0.6404471	None	512591	1	2024-11-21_14h19.28.265	delay discounting	2024.1.5	None	2024-11-21 14h19.36.042501 +0530					0.006048387		
49	60	89	12	5	89	4	193.3401342		193.3170029	193.3401342	194.3244179	194.3244179	194.3408621	195.0954995	t	0.7569657	None	512591	1	2024-11-21_14h19.28.265	delay discounting	2024.1.5	None	2024-11-21 14h19.36.042501 +0530					0.002522357		
67	75	119	12	6	90	5	195.10762		195.0962429	195.10762	196.1083162	196.1083162	196.1083162	197.0970933	t	0.9847941	None	512591	1	2024-11-21_14h19.28.265	delay discounting	2024.1.5	None	2024-11-21 14h19.36.042501 +0530					0.001003386		
40	55	62	13	0	91	3	197.1237406		197.097878	197.1237406	198.124213	198.124213	198.1415309	199.1972843	t	1.0671938	None	512591	1	2024-11-21_14h19.28.265	delay discounting	2024.1.5	None	2024-11-21 14h19.36.042501 +0530					0.006048387		
49	60	89	13	2	93	4	200.9250955		200.9148647	200.9250955	201.9259044	201.9259044	201.9259044	202.7342433	t	0.7997297	None	512591	1	2024-11-21_14h19.28.265	delay discounting	2024.1.5	None	2024-11-21 14h19.36.042501 +0530					0.002522357		
78	80	162	13	4	95	6	204.9915747		204.9682518	204.9915747	205.976475	205.976475	205.9928533	206.83222	t	0.8396098	None	512591	1	2024-11-21_14h19.28.265	delay discounting	2024.1.5	None	2024-11-21 14h19.36.042501 +0530					0.000158278		
67	75	119	13	6	97	5	209.0429859		209.0322108	209.0429859	210.0434377	210.0434377	210.0434377	210.7987144	t	0.7532565	None	512591	1	2024-11-21_14h19.28.265	delay discounting	2024.1.5	None	2024-11-21 14h19.36.042501 +0530					0.001003386		
78	80	162	14	0	98	6	210.8253803		210.7994723	210.8253803	211.8103735	211.8103735	211.8268461	212.8851269	t	1.0665365	None	512591	1	2024-11-21_14h19.28.265	delay discounting	2024.1.5	None	2024-11-21 14h19.36.042501 +0530					0.000158278		
37	50	21	14	3	101	2	216.4594007		216.4329415	216.4594007	217.4442139	217.4442139	217.4610329	218.2039148	t	0.7551138	None	512591	1	2024-11-21_14h19.28.265	delay discounting	2024.1.5	None	2024-11-21 14h19.36.042501 +0530					0.016731017		
67	75	119	14	4	102	5	218.2261544		218.2048594	218.2261544	219.2109279	219.2109279	219.2275142	219.8992876	t	0.6788469	None	512591	1	2024-11-21_14h19.28.265	delay discounting	2024.1.5	None	2024-11-21 14h19.36.042501 +0530					0.001003386		
49	60	89	14	5	103	4	219.9264779		219.8999717	219.9264779	220.9109182	220.9109182	220.9278435	221.8496542	t	0.9345982	None	512591	1	2024-11-21_14h19.28.265	delay discounting	2024.1.5	None	2024-11-21 14h19.36.042501 +0530					0.002522357		
